Data from 14g_HRC06701__27__210.txt Node

Date: Thu Apr 18 01:58:21 CDT 2024
User: Estudiantes 2
Spectrometer: HR+C0670
Trigger mode: 4
Integration Time (sec): 1.000000E0
Scans to average: 1
Electric dark correction enabled: true
Nonlinearity correction enabled: false
Boxcar width: 0
XAxis mode: Wavelengths
Number of Pixels in Spectrum: 2048
>>>>>Begin Spectral Data<<<<<
407.81	-99.69
407.921	-99.69
408.032	-99.69
408.143	-140.69
408.254	-164.69
408.365	47.31
408.476	282.31
408.587	-14.69
408.699	-24.69
408.81	18.31
408.921	-73.69
409.032	-50.69
409.143	63.31
409.254	6.31
409.365	92.31
409.476	-9.69
409.587	-9.69
409.698	78.31
409.809	98.31
409.92	-31.69
410.031	-18.69
410.142	77.31
410.253	77.31
410.364	11.31
410.475	228.31
410.585	1311.31
410.696	1390.31
410.807	1319.31
410.918	1386.31
411.029	1414.31
411.14	1430.31
411.251	1416.31
411.362	1446.31
411.472	1426.31
411.583	1398.31
411.694	1481.31
411.805	1412.31
411.916	1498.31
412.026	1575.31
412.137	1472.31
412.248	1428.31
412.359	1464.31
412.47	1372.31
412.58	1346.31
412.691	1457.31
412.802	1407.31
412.912	1387.31
413.023	1433.31
413.134	1424.31
413.245	1490.31
413.355	1399.31
413.466	1431.31
413.577	1359.31
413.687	1458.31
413.798	1377.31
413.909	1478.31
414.019	1422.31
414.13	1488.31
414.24	1403.31
414.351	1410.31
414.462	1656.31
414.572	1458.31
414.683	1456.31
414.793	1469.31
414.904	1787.31
415.014	1444.31
415.125	1339.31
415.235	1504.31
415.346	1544.31
415.456	1571.31
415.567	1458.31
415.677	1457.31
415.788	1464.31
415.898	1392.31
416.009	1427.31
416.119	1405.31
416.23	1393.31
416.34	1416.31
416.45	1408.31
416.561	2208.31
416.671	1623.31
416.782	1359.31
416.892	1447.31
417.002	1498.31
417.113	1486.31
417.223	1439.31
417.333	1419.31
417.444	1484.31
417.554	1528.31
417.664	1511.31
417.775	1481.31
417.885	1491.31
417.995	1500.31
418.106	1725.31
418.216	1542.31
418.326	1564.31
418.436	1643.31
418.547	1601.31
418.657	1652.31
418.767	1694.31
418.877	1656.31
418.987	1667.31
419.098	1652.31
419.208	1680.31
419.318	1663.31
419.428	1668.31
419.538	1666.31
419.648	1632.31
419.759	1749.31
419.869	1724.31
419.979	1620.31
420.089	1667.31
420.199	1635.31
420.309	1717.31
420.419	1641.31
420.529	1692.31
420.639	2207.31
420.749	1732.31
420.859	1772.31
420.969	1792.31
421.079	1963.31
421.189	1746.31
421.299	1800.31
421.409	1701.31
421.519	1803.31
421.629	1839.31
421.739	1778.31
421.849	1743.31
421.959	1661.31
422.069	1818.31
422.179	1762.31
422.289	1766.31
422.399	1907.31
422.509	1882.31
422.619	4337.31
422.729	2105.31
422.838	1794.31
422.948	1921.31
423.058	1893.31
423.168	1919.31
423.278	1938.31
423.388	1981.31
423.498	2081.31
423.607	2007.31
423.717	2262.31
423.827	2344.31
423.937	2031.31
424.046	2129.31
424.156	2130.31
424.266	2040.31
424.376	2311.31
424.485	2230.31
424.595	2167.31
424.705	2080.31
424.815	2154.31
424.924	2516.31
425.034	2215.31
425.144	2036.31
425.253	2211.31
425.363	2147.31
425.473	2213.31
425.582	2111.31
425.692	2126.31
425.801	2079.31
425.911	2347.31
426.021	2231.31
426.13	2304.31
426.24	2486.31
426.349	2374.31
426.459	2286.31
426.568	2217.31
426.678	2419.31
426.787	2272.31
426.897	2290.31
427.006	2349.31
427.116	2391.31
427.225	2370.31
427.335	2476.31
427.444	2371.31
427.554	2393.31
427.663	2410.31
427.773	2441.31
427.882	2455.31
427.992	2422.31
428.101	2469.31
428.21	2350.31
428.32	2403.31
428.429	2397.31
428.539	2715.31
428.648	2421.31
428.757	2538.31
428.867	2587.31
428.976	2693.31
429.085	2559.31
429.195	2561.31
429.304	2485.31
429.413	2641.31
429.523	2699.31
429.632	2593.31
429.741	2675.31
429.85	2683.31
429.96	2700.31
430.069	2591.31
430.178	2649.31
430.287	2931.31
430.397	2641.31
430.506	2728.31
430.615	2763.31
430.724	2738.31
430.833	2744.31
430.943	2752.31
431.052	2781.31
431.161	2724.31
431.27	2877.31
431.379	2797.31
431.488	3042.31
431.597	2995.31
431.706	2993.31
431.816	2993.31
431.925	2942.31
432.034	2917.31
432.143	2980.31
432.252	2947.31
432.361	3023.31
432.47	2957.31
432.579	2895.31
432.688	2921.31
432.797	2985.31
432.906	2820.31
433.015	3023.31
433.124	3299.31
433.233	3067.31
433.342	3034.31
433.451	3016.31
433.56	2953.31
433.669	2945.31
433.778	2999.31
433.886	3034.31
433.995	3064.31
434.104	3240.31
434.213	3123.31
434.322	3107.31
434.431	3259.31
434.54	3338.31
434.649	3482.31
434.757	3322.31
434.866	3329.31
434.975	3308.31
435.084	3243.31
435.193	3230.31
435.301	3330.31
435.41	3412.31
435.519	3516.31
435.628	3018.31
435.737	2861.31
435.845	2860.31
435.954	2818.31
436.063	2786.31
436.171	2867.31
436.28	2840.31
436.389	2953.31
436.498	2857.31
436.606	2913.31
436.715	2972.31
436.823	2716.31
436.932	2756.31
437.041	2711.31
437.149	2743.31
437.258	2661.31
437.367	2617.31
437.475	2627.31
437.584	2900.31
437.692	2640.31
437.801	4150.31
437.91	2797.31
438.018	2670.31
438.127	2603.31
438.235	2665.31
438.344	2618.31
438.452	2602.31
438.561	2516.31
438.669	2632.31
438.778	2538.31
438.886	2517.31
438.995	2567.31
439.103	2599.31
439.212	2545.31
439.32	2559.31
439.428	2508.31
439.537	2628.31
439.645	2676.31
439.754	2694.31
439.862	2563.31
439.97	2610.31
440.079	2628.31
440.187	2523.31
440.295	2749.31
440.404	2664.31
440.512	2694.31
440.62	2720.31
440.729	2754.31
440.837	2744.31
440.945	3449.31
441.054	2871.31
441.162	2860.31
441.27	2961.31
441.378	2903.31
441.487	2976.31
441.595	3327.31
441.703	3028.31
441.811	2976.31
441.92	2997.31
442.028	2723.31
442.136	2795.31
442.244	2833.31
442.352	2756.31
442.461	2673.31
442.569	2724.31
442.677	2760.31
442.785	2790.31
442.893	2774.31
443.001	2746.31
443.109	2698.31
443.217	2801.31
443.325	2749.31
443.434	3298.31
443.542	3072.31
443.65	2829.31
443.758	2987.31
443.866	2874.31
443.974	3277.31
444.082	3098.31
444.19	3026.31
444.298	3113.31
444.406	3299.31
444.514	3295.31
444.622	3324.31
444.73	3341.31
444.838	3200.31
444.946	3266.31
445.054	3064.31
445.161	3012.31
445.269	2892.31
445.377	3016.31
445.485	2980.31
445.593	2980.31
445.701	3115.31
445.809	2882.31
445.917	2863.31
446.025	2866.31
446.132	2971.31
446.24	2913.31
446.348	2891.31
446.456	2884.31
446.564	2851.31
446.671	2944.31
446.779	2827.31
446.887	2856.31
446.995	2886.31
447.102	2996.31
447.21	2801.31
447.318	2764.31
447.426	2803.31
447.533	3035.31
447.641	4006.31
447.749	2917.31
447.856	2820.31
447.964	2816.31
448.072	2922.31
448.179	2798.31
448.287	2825.31
448.395	2843.31
448.502	2761.31
448.61	2796.31
448.718	2791.31
448.825	2917.31
448.933	2830.31
449.04	2830.31
449.148	2981.31
449.256	2915.31
449.363	2917.31
449.471	2925.31
449.578	3050.31
449.686	2828.31
449.793	3027.31
449.901	2974.31
450.008	3048.31
450.116	3119.31
450.223	3055.31
450.331	3168.31
450.438	3193.31
450.546	3218.31
450.653	3292.31
450.76	3216.31
450.868	3339.31
450.975	3506.31
451.083	3364.31
451.19	3378.31
451.297	3257.31
451.405	3405.31
451.512	3223.31
451.619	3454.31
451.727	3453.31
451.834	3335.31
451.941	3329.31
452.049	3334.31
452.156	3396.31
452.263	3511.31
452.371	3438.31
452.478	3460.31
452.585	3615.31
452.692	3452.31
452.8	3507.31
452.907	3618.31
453.014	3618.31
453.121	3531.31
453.229	3565.31
453.336	3643.31
453.443	3633.31
453.55	3527.31
453.657	3547.31
453.765	3688.31
453.872	3549.31
453.979	3701.31
454.086	3639.31
454.193	3628.31
454.3	3643.31
454.407	3847.31
454.514	3796.31
454.621	3667.31
454.729	3706.31
454.836	3722.31
454.943	3751.31
455.05	3771.31
455.157	3877.31
455.264	3800.31
455.371	3862.31
455.478	3859.31
455.585	4038.31
455.692	3892.31
455.799	4019.31
455.906	3820.31
456.013	3836.31
456.12	3848.31
456.227	3888.31
456.334	3893.31
456.44	4031.31
456.547	4057.31
456.654	3987.31
456.761	4000.31
456.868	4169.31
456.975	4072.31
457.082	3996.31
457.189	4036.31
457.296	4044.31
457.402	4003.31
457.509	4056.31
457.616	4175.31
457.723	4303.31
457.83	4266.31
457.936	4213.31
458.043	4553.31
458.15	4285.31
458.257	4426.31
458.363	4470.31
458.47	4557.31
458.577	4631.31
458.684	4522.31
458.79	4735.31
458.897	4797.31
459.004	4955.31
459.11	4818.31
459.217	4924.31
459.324	5049.31
459.43	5122.31
459.537	5221.31
459.644	5170.31
459.75	5051.31
459.857	5509.31
459.964	5400.31
460.07	5320.31
460.177	5378.31
460.283	5547.31
460.39	5737.31
460.496	5392.31
460.603	5503.31
460.71	5425.31
460.816	5368.31
460.923	5338.31
461.029	5506.31
461.136	5511.31
461.242	5355.31
461.349	5414.31
461.455	5429.31
461.562	5715.31
461.668	5591.31
461.774	5497.31
461.881	5545.31
461.987	5637.31
462.094	5724.31
462.2	5849.31
462.307	5831.31
462.413	5769.31
462.519	5931.31
462.626	6269.31
462.732	6365.31
462.838	6512.31
462.945	6676.31
463.051	6700.31
463.157	6635.31
463.264	6432.31
463.37	6335.31
463.476	6190.31
463.583	6118.31
463.689	5952.31
463.795	6086.31
463.901	6083.31
464.008	6304.31
464.114	6234.31
464.22	6154.31
464.326	6008.31
464.433	5786.31
464.539	5859.31
464.645	5562.31
464.751	5820.31
464.857	5548.31
464.963	5247.31
465.07	5303.31
465.176	5095.31
465.282	4911.31
465.388	4782.31
465.494	4631.31
465.6	4566.31
465.706	4396.31
465.812	4438.31
465.918	4461.31
466.024	4279.31
466.131	4322.31
466.237	4174.31
466.343	4122.31
466.449	4027.31
466.555	4049.31
466.661	3923.31
466.767	3962.31
466.873	3928.31
466.979	4083.31
467.085	3894.31
467.191	3969.31
467.296	3908.31
467.402	3861.31
467.508	3834.31
467.614	3986.31
467.72	3725.31
467.826	3760.31
467.932	3776.31
468.038	3586.31
468.144	3560.31
468.25	3680.31
468.355	3483.31
468.461	3534.31
468.567	3556.31
468.673	3610.31
468.779	3483.31
468.885	3542.31
468.99	3510.31
469.096	3496.31
469.202	3664.31
469.308	3672.31
469.413	3637.31
469.519	3645.31
469.625	3616.31
469.731	3631.31
469.836	3687.31
469.942	3895.31
470.048	3681.31
470.153	3661.31
470.259	3711.31
470.365	3816.31
470.47	3658.31
470.576	3672.31
470.682	3665.31
470.787	3488.31
470.893	3429.31
470.999	3585.31
471.104	3424.31
471.21	3310.31
471.315	3286.31
471.421	3233.31
471.527	3460.31
471.632	3369.31
471.738	3350.31
471.843	3151.31
471.949	3240.31
472.054	3276.31
472.16	3112.31
472.265	3096.31
472.371	3155.31
472.476	3079.31
472.582	3149.31
472.687	3070.31
472.793	3107.31
472.898	2970.31
473.003	3025.31
473.109	2990.31
473.214	2974.31
473.32	3003.31
473.425	3071.31
473.53	3009.31
473.636	2891.31
473.741	2971.31
473.847	2874.31
473.952	2957.31
474.057	3012.31
474.163	3004.31
474.268	2919.31
474.373	2919.31
474.478	2938.31
474.584	2871.31
474.689	2951.31
474.794	2954.31
474.9	3245.31
475.005	2870.31
475.11	3124.31
475.215	2863.31
475.321	2898.31
475.426	3162.31
475.531	3086.31
475.636	2895.31
475.741	2912.31
475.846	3184.31
475.952	3196.31
476.057	3142.31
476.162	3129.31
476.267	3137.31
476.372	3354.31
476.477	3071.31
476.582	3171.31
476.687	3005.31
476.793	3120.31
476.898	3111.31
477.003	3071.31
477.108	3098.31
477.213	3059.31
477.318	3137.31
477.423	3241.31
477.528	3343.31
477.633	3310.31
477.738	3305.31
477.843	3306.31
477.948	3269.31
478.053	3345.31
478.158	3363.31
478.263	3379.31
478.368	3376.31
478.473	3515.31
478.578	3456.31
478.682	3439.31
478.787	3551.31
478.892	3540.31
478.997	3564.31
479.102	3538.31
479.207	3520.31
479.312	3582.31
479.417	3523.31
479.521	3580.31
479.626	3663.31
479.731	3630.31
479.836	3683.31
479.941	3804.31
480.045	3756.31
480.15	3772.31
480.255	3865.31
480.36	3857.31
480.465	3847.31
480.569	4019.31
480.674	3769.31
480.779	3673.31
480.883	3700.31
480.988	3653.31
481.093	3667.31
481.197	3696.31
481.302	3688.31
481.407	3754.31
481.511	4905.31
481.616	3773.31
481.721	3706.31
481.825	3826.31
481.93	3615.31
482.035	3688.31
482.139	3728.31
482.244	3767.31
482.348	3695.31
482.453	3683.31
482.557	3792.31
482.662	3710.31
482.767	3701.31
482.871	3752.31
482.976	3844.31
483.08	3872.31
483.185	3974.31
483.289	3848.31
483.394	3909.31
483.498	3952.31
483.603	3927.31
483.707	4019.31
483.811	3927.31
483.916	4093.31
484.02	3973.31
484.125	4065.31
484.229	4046.31
484.333	4278.31
484.438	4057.31
484.542	4072.31
484.647	4187.31
484.751	4300.31
484.855	4205.31
484.96	4277.31
485.064	4378.31
485.168	4258.31
485.273	4373.31
485.377	4374.31
485.481	4640.31
485.585	4505.31
485.69	4528.31
485.794	4531.31
485.898	4519.31
486.002	4578.31
486.107	4624.31
486.211	4547.31
486.315	4580.31
486.419	4515.31
486.524	4536.31
486.628	4591.31
486.732	4572.31
486.836	4603.31
486.94	4657.31
487.044	4716.31
487.148	4498.31
487.253	4527.31
487.357	4676.31
487.461	4724.31
487.565	4545.31
487.669	4566.31
487.773	4563.31
487.877	4664.31
487.981	4734.31
488.085	4633.31
488.189	4599.31
488.293	4711.31
488.397	5023.31
488.501	4618.31
488.605	4443.31
488.709	4631.31
488.813	4609.31
488.917	4589.31
489.021	4636.31
489.125	4834.31
489.229	4593.31
489.333	4837.31
489.437	4656.31
489.541	4735.31
489.645	4688.31
489.749	4746.31
489.853	4772.31
489.956	4628.31
490.06	4784.31
490.164	4592.31
490.268	4688.31
490.372	4792.31
490.476	4653.31
490.579	4628.31
490.683	5447.31
490.787	4787.31
490.891	4722.31
490.995	4738.31
491.098	4743.31
491.202	4675.31
491.306	4692.31
491.41	4707.31
491.513	4631.31
491.617	4764.31
491.721	4910.31
491.824	4946.31
491.928	4876.31
492.032	4969.31
492.136	4786.31
492.239	4716.31
492.343	4848.31
492.446	5153.31
492.55	4777.31
492.654	4754.31
492.757	4778.31
492.861	4844.31
492.965	4768.31
493.068	4928.31
493.172	4717.31
493.275	4656.31
493.379	4757.31
493.482	4855.31
493.586	4888.31
493.689	5027.31
493.793	4834.31
493.896	4946.31
494	4769.31
494.103	4944.31
494.207	5164.31
494.31	5229.31
494.414	4976.31
494.517	4831.31
494.621	4617.31
494.724	4781.31
494.828	4784.31
494.931	4688.31
495.034	4692.31
495.138	4957.31
495.241	4587.31
495.345	5341.31
495.448	4821.31
495.551	4603.31
495.655	4590.31
495.758	4578.31
495.861	4689.31
495.965	4566.31
496.068	4833.31
496.171	4743.31
496.274	4688.31
496.378	4674.31
496.481	4724.31
496.584	4689.31
496.687	4780.31
496.791	4791.31
496.894	4725.31
496.997	4788.31
497.1	4821.31
497.204	4748.31
497.307	4792.31
497.41	5038.31
497.513	5087.31
497.616	4888.31
497.719	4955.31
497.823	5080.31
497.926	5080.31
498.029	5226.31
498.132	5305.31
498.235	5348.31
498.338	5476.31
498.441	5722.31
498.544	5620.31
498.647	5842.31
498.75	6136.31
498.853	6293.31
498.956	6348.31
499.059	6711.31
499.163	6739.31
499.266	6867.31
499.369	7147.31
499.471	7491.31
499.574	7770.31
499.677	7995.31
499.78	8516.31
499.883	8809.31
499.986	9265.31
500.089	9764.31
500.192	9859.31
500.295	9990.31
500.398	9891.31
500.501	9781.31
500.604	9574.31
500.707	9025.31
500.809	8700.31
500.912	8390.31
501.015	8134.31
501.118	7534.31
501.221	7310.31
501.324	6824.31
501.426	6605.31
501.529	6231.31
501.632	6153.31
501.735	5861.31
501.837	5705.31
501.94	5467.31
502.043	5457.31
502.146	5355.31
502.248	5219.31
502.351	5076.31
502.454	5073.31
502.557	4885.31
502.659	4903.31
502.762	4697.31
502.865	4534.31
502.967	4533.31
503.07	4457.31
503.173	4509.31
503.275	4337.31
503.378	4352.31
503.48	4246.31
503.583	4263.31
503.686	4208.31
503.788	4522.31
503.891	4277.31
503.993	4449.31
504.096	4263.31
504.198	4278.31
504.301	4212.31
504.403	4280.31
504.506	4156.31
504.608	4088.31
504.711	4060.31
504.813	4019.31
504.916	3884.31
505.018	3740.31
505.121	3722.31
505.223	3744.31
505.326	3727.31
505.428	3824.31
505.531	3583.31
505.633	3552.31
505.735	3476.31
505.838	3464.31
505.94	3428.31
506.042	3386.31
506.145	3363.31
506.247	3496.31
506.35	3314.31
506.452	3453.31
506.554	3483.31
506.656	3371.31
506.759	3450.31
506.861	3353.31
506.963	3232.31
507.066	3376.31
507.168	3382.31
507.27	3246.31
507.372	3202.31
507.475	3257.31
507.577	3250.31
507.679	3196.31
507.781	3191.31
507.883	3190.31
507.986	3101.31
508.088	3205.31
508.19	3183.31
508.292	3087.31
508.394	3107.31
508.496	3064.31
508.598	3104.31
508.701	3146.31
508.803	3172.31
508.905	3030.31
509.007	3054.31
509.109	3185.31
509.211	3055.31
509.313	3025.31
509.415	3046.31
509.517	3033.31
509.619	3060.31
509.721	3078.31
509.823	2952.31
509.925	3126.31
510.027	2941.31
510.129	3051.31
510.231	3013.31
510.333	3001.31
510.435	3004.31
510.537	3078.31
510.639	3101.31
510.741	3046.31
510.843	3055.31
510.945	2984.31
511.047	3123.31
511.148	3115.31
511.25	2944.31
511.352	3037.31
511.454	2912.31
511.556	3084.31
511.658	2968.31
511.76	3085.31
511.861	3185.31
511.963	2969.31
512.065	3068.31
512.167	2925.31
512.268	3133.31
512.37	3152.31
512.472	3075.31
512.574	3061.31
512.676	3107.31
512.777	3037.31
512.879	2958.31
512.981	3028.31
513.082	3054.31
513.184	3033.31
513.286	3475.31
513.387	3219.31
513.489	3182.31
513.591	3201.31
513.692	3216.31
513.794	3157.31
513.896	3000.31
513.997	3054.31
514.099	3076.31
514.2	3099.31
514.302	3158.31
514.404	3173.31
514.505	3125.31
514.607	3218.31
514.708	3172.31
514.81	3223.31
514.911	3257.31
515.013	3316.31
515.114	3178.31
515.216	3233.31
515.317	3334.31
515.419	3251.31
515.52	3379.31
515.622	3371.31
515.723	3343.31
515.825	3560.31
515.926	3517.31
516.027	3427.31
516.129	3374.31
516.23	3525.31
516.332	3631.31
516.433	3660.31
516.534	3826.31
516.636	3772.31
516.737	3793.31
516.838	4842.31
516.94	4059.31
517.041	4142.31
517.142	4267.31
517.244	4204.31
517.345	4332.31
517.446	4297.31
517.547	4288.31
517.649	4288.31
517.75	4401.31
517.851	4287.31
517.952	4544.31
518.054	4326.31
518.155	4320.31
518.256	4096.31
518.357	4160.31
518.458	3896.31
518.56	3828.31
518.661	4009.31
518.762	3768.31
518.863	3930.31
518.964	3882.31
519.065	3698.31
519.166	3692.31
519.268	3646.31
519.369	4010.31
519.47	3616.31
519.571	3696.31
519.672	3586.31
519.773	3582.31
519.874	3648.31
519.975	3715.31
520.076	3600.31
520.177	3547.31
520.278	3578.31
520.379	3538.31
520.48	3447.31
520.581	3459.31
520.682	3508.31
520.783	3541.31
520.884	3627.31
520.985	3600.31
521.086	3503.31
521.187	3536.31
521.288	3515.31
521.389	3605.31
521.489	3485.31
521.59	3514.31
521.691	3458.31
521.792	3436.31
521.893	3558.31
521.994	3578.31
522.095	3455.31
522.195	3516.31
522.296	3660.31
522.397	3581.31
522.498	3465.31
522.599	3470.31
522.699	3424.31
522.8	3522.31
522.901	3653.31
523.002	3517.31
523.102	3698.31
523.203	3529.31
523.304	3621.31
523.405	3492.31
523.505	3475.31
523.606	3640.31
523.707	3439.31
523.807	3557.31
523.908	3588.31
524.009	3568.31
524.109	3460.31
524.21	3444.31
524.31	3559.31
524.411	3580.31
524.512	3708.31
524.612	3647.31
524.713	3729.31
524.813	3551.31
524.914	3913.31
525.014	8958.31
525.115	3933.31
525.216	3561.31
525.316	3551.31
525.417	3543.31
525.517	3517.31
525.618	3497.31
525.718	3509.31
525.819	3549.31
525.919	3647.31
526.019	3498.31
526.12	3606.31
526.22	3522.31
526.321	3473.31
526.421	3437.31
526.522	3587.31
526.622	3461.31
526.722	3508.31
526.823	3583.31
526.923	3483.31
527.023	3604.31
527.124	3503.31
527.224	3619.31
527.324	3477.31
527.425	3555.31
527.525	3441.31
527.625	3524.31
527.726	3558.31
527.826	3616.31
527.926	3562.31
528.026	3562.31
528.127	3520.31
528.227	3454.31
528.327	3577.31
528.427	3505.31
528.528	3506.31
528.628	3578.31
528.728	3546.31
528.828	3523.31
528.928	3532.31
529.029	3498.31
529.129	3528.31
529.229	3490.31
529.329	3499.31
529.429	3661.31
529.529	3545.31
529.629	3466.31
529.729	3527.31
529.829	3591.31
529.93	3384.31
530.03	3488.31
530.13	3458.31
530.23	3467.31
530.33	3537.31
530.43	3507.31
530.53	3518.31
530.63	3380.31
530.73	3381.31
530.83	3299.31
530.93	3296.31
531.03	3368.31
531.13	3440.31
531.23	3303.31
531.33	3420.31
531.429	3595.31
531.529	3470.31
531.629	3424.31
531.729	3333.31
531.829	3355.31
531.929	3336.31
532.029	3458.31
532.129	3311.31
532.229	3361.31
532.328	3398.31
532.428	3353.31
532.528	3137.31
532.628	3244.31
532.728	3373.31
532.827	3252.31
532.927	3169.31
533.027	3292.31
533.127	3374.31
533.227	3219.31
533.326	3335.31
533.426	3220.31
533.526	3356.31
533.625	3332.31
533.725	3464.31
533.825	3290.31
533.924	3219.31
534.024	3167.31
534.124	3136.31
534.223	3103.31
534.323	3510.31
534.423	3200.31
534.522	3137.31
534.622	3116.31
534.722	3140.31
534.821	3116.31
534.921	2998.31
535.02	3083.31
535.12	3097.31
535.219	3168.31
535.319	3127.31
535.419	3116.31
535.518	3000.31
535.618	3063.31
535.717	3021.31
535.817	2888.31
535.916	2813.31
536.016	2963.31
536.115	2889.31
536.215	2927.31
536.314	2887.31
536.413	2789.31
536.513	2844.31
536.612	2789.31
536.712	2691.31
536.811	2883.31
536.91	2793.31
537.01	2702.31
537.109	2854.31
537.209	2862.31
537.308	2784.31
537.407	2706.31
537.507	2748.31
537.606	2648.31
537.705	2773.31
537.805	2715.31
537.904	2695.31
538.003	2699.31
538.102	2801.31
538.202	2745.31
538.301	2706.31
538.4	2710.31
538.499	2731.31
538.599	2677.31
538.698	2878.31
538.797	2663.31
538.896	2767.31
538.995	2649.31
539.095	2670.31
539.194	2884.31
539.293	2616.31
539.392	2598.31
539.491	2679.31
539.59	2612.31
539.689	2703.31
539.789	2771.31
539.888	2522.31
539.987	2451.31
540.086	2644.31
540.185	2568.31
540.284	2627.31
540.383	2515.31
540.482	2509.31
540.581	2514.31
540.68	2522.31
540.779	2640.31
540.878	2628.31
540.977	2562.31
541.076	2495.31
541.175	2521.31
541.274	2722.31
541.373	2661.31
541.472	2656.31
541.571	2418.31
541.67	3785.31
541.769	2736.31
541.868	2474.31
541.966	2597.31
542.065	2547.31
542.164	2531.31
542.263	2412.31
542.362	2554.31
542.461	2572.31
542.56	2543.31
542.658	2528.31
542.757	2393.31
542.856	2376.31
542.955	2429.31
543.054	2440.31
543.152	2603.31
543.251	2494.31
543.35	2626.31
543.449	2450.31
543.547	2391.31
543.646	2423.31
543.745	2539.31
543.843	2489.31
543.942	2512.31
544.041	2380.31
544.14	2448.31
544.238	2420.31
544.337	2645.31
544.436	2489.31
544.534	2628.31
544.633	2559.31
544.731	2434.31
544.83	2500.31
544.929	2421.31
545.027	2358.31
545.126	2420.31
545.224	2554.31
545.323	2415.31
545.421	2444.31
545.52	2482.31
545.619	2509.31
545.717	2449.31
545.816	2545.31
545.914	2509.31
546.013	2677.31
546.111	2604.31
546.209	2430.31
546.308	2375.31
546.406	2409.31
546.505	2538.31
546.603	2412.31
546.702	2369.31
546.8	2450.31
546.899	2385.31
546.997	2474.31
547.095	2438.31
547.194	2511.31
547.292	2410.31
547.39	2539.31
547.489	2483.31
547.587	2685.31
547.685	2443.31
547.784	2724.31
547.882	2451.31
547.98	2371.31
548.079	2538.31
548.177	2382.31
548.275	2380.31
548.373	2587.31
548.472	2405.31
548.57	2380.31
548.668	2512.31
548.766	2404.31
548.864	2529.31
548.963	2415.31
549.061	2632.31
549.159	2426.31
549.257	2465.31
549.355	2463.31
549.454	2403.31
549.552	2464.31
549.65	2468.31
549.748	2445.31
549.846	2381.31
549.944	2486.31
550.042	2408.31
550.14	2427.31
550.238	2408.31
550.336	2370.31
550.434	2315.31
550.532	2354.31
550.631	2487.31
550.729	2368.31
550.827	2416.31
550.925	2440.31
551.023	2348.31
551.121	2260.31
551.218	2380.31
551.316	2357.31
551.414	2294.31
551.512	2255.31
551.61	2404.31
551.708	2415.31
551.806	2415.31
551.904	2431.31
552.002	2365.31
552.1	2363.31
552.198	2372.31
552.296	2599.31
552.393	2608.31
552.491	2689.31
552.589	2659.31
552.687	2632.31
552.785	2613.31
552.882	2732.31
552.98	2773.31
553.078	2668.31
553.176	2766.31
553.274	2528.31
553.371	2552.31
553.469	2643.31
553.567	2628.31
553.665	2513.31
553.762	2938.31
553.86	2693.31
553.958	2594.31
554.055	2493.31
554.153	2632.31
554.251	2415.31
554.348	2440.31
554.446	2387.31
554.544	2430.31
554.641	2694.31
554.739	2356.31
554.837	2410.31
554.934	2406.31
555.032	2336.31
555.129	2360.31
555.227	2477.31
555.324	7347.31
555.422	2717.31
555.519	2308.31
555.617	2266.31
555.715	2201.31
555.812	2596.31
555.91	2157.31
556.007	2272.31
556.105	2284.31
556.202	2248.31
556.299	2199.31
556.397	2272.31
556.494	2206.31
556.592	2231.31
556.689	2266.31
556.787	2200.31
556.884	2151.31
556.981	2224.31
557.079	2155.31
557.176	2180.31
557.273	2212.31
557.371	2366.31
557.468	2177.31
557.566	2169.31
557.663	2187.31
557.76	2174.31
557.857	2217.31
557.955	2341.31
558.052	2310.31
558.149	2318.31
558.247	2326.31
558.344	2160.31
558.441	2218.31
558.538	2224.31
558.636	2215.31
558.733	2217.31
558.83	2256.31
558.927	2240.31
559.024	2197.31
559.122	2195.31
559.219	2252.31
559.316	2298.31
559.413	2322.31
559.51	2223.31
559.607	2222.31
559.704	2243.31
559.801	2309.31
559.899	2234.31
559.996	2488.31
560.093	2294.31
560.19	2274.31
560.287	2285.31
560.384	2367.31
560.481	2293.31
560.578	2207.31
560.675	2168.31
560.772	2360.31
560.869	2260.31
560.966	2425.31
561.063	2235.31
561.16	2383.31
561.257	2314.31
561.354	2227.31
561.451	2272.31
561.548	2234.31
561.645	2398.31
561.742	2280.31
561.838	2179.31
561.935	2243.31
562.032	2262.31
562.129	2180.31
562.226	2269.31
562.323	2291.31
562.42	2311.31
562.516	2302.31
562.613	2209.31
562.71	2285.31
562.807	3026.31
562.904	2301.31
563	2381.31
563.097	2330.31
563.194	2299.31
563.291	2312.31
563.387	2304.31
563.484	2307.31
563.581	2343.31
563.678	2295.31
563.774	2709.31
563.871	2354.31
563.968	2409.31
564.064	2394.31
564.161	2394.31
564.258	2446.31
564.354	2466.31
564.451	2503.31
564.548	2547.31
564.644	2470.31
564.741	2467.31
564.837	2497.31
564.934	2559.31
565.031	2508.31
565.127	2584.31
565.224	2652.31
565.32	2792.31
565.417	2629.31
565.513	2783.31
565.61	2795.31
565.706	2880.31
565.803	2912.31
565.899	2903.31
565.996	2992.31
566.092	3039.31
566.189	3095.31
566.285	3228.31
566.382	3300.31
566.478	3457.31
566.574	3592.31
566.671	3390.31
566.767	3562.31
566.864	3455.31
566.96	3584.31
567.056	3531.31
567.153	3748.31
567.249	3728.31
567.345	3818.31
567.442	3931.31
567.538	3956.31
567.634	3900.31
567.731	4021.31
567.827	4036.31
567.923	3953.31
568.019	3769.31
568.116	3498.31
568.212	3495.31
568.308	3580.31
568.404	3308.31
568.501	3148.31
568.597	3168.31
568.693	2965.31
568.789	3540.31
568.885	2851.31
568.982	2917.31
569.078	2745.31
569.174	2783.31
569.27	2632.31
569.366	2649.31
569.462	2585.31
569.558	2549.31
569.655	2443.31
569.751	2379.31
569.847	2423.31
569.943	2415.31
570.039	2319.31
570.135	2808.31
570.231	2510.31
570.327	2520.31
570.423	2510.31
570.519	2439.31
570.615	2353.31
570.711	2465.31
570.807	2548.31
570.903	2351.31
570.999	2375.31
571.095	2372.31
571.191	2387.31
571.287	2383.31
571.383	2360.31
571.479	2352.31
571.574	2352.31
571.67	2215.31
571.766	2439.31
571.862	2074.31
571.958	2099.31
572.054	2215.31
572.15	2090.31
572.246	2022.31
572.341	2189.31
572.437	2048.31
572.533	2098.31
572.629	2063.31
572.725	2099.31
572.82	2041.31
572.916	2088.31
573.012	2058.31
573.108	2134.31
573.203	2026.31
573.299	2004.31
573.395	1948.31
573.49	1941.31
573.586	1962.31
573.682	1939.31
573.778	2077.31
573.873	1925.31
573.969	1911.31
574.065	1899.31
574.16	1962.31
574.256	1970.31
574.351	1944.31
574.447	1923.31
574.543	1948.31
574.638	1994.31
574.734	2005.31
574.829	2055.31
574.925	1952.31
575.02	1863.31
575.116	1907.31
575.212	1962.31
575.307	1977.31
575.403	1834.31
575.498	1924.31
575.594	1751.31
575.689	1843.31
575.784	1906.31
575.88	1826.31
575.975	1848.31
576.071	1796.31
576.166	1764.31
576.262	1796.31
576.357	1740.31
576.452	1964.31
576.548	1796.31
576.643	1762.31
576.739	1843.31
576.834	1797.31
576.929	1780.31
577.025	2443.31
577.12	1658.31
577.215	1668.31
577.311	1784.31
577.406	1798.31
577.501	1846.31
577.597	1674.31
577.692	1815.31
577.787	1759.31
577.882	1653.31
577.978	1736.31
578.073	1620.31
578.168	1583.31
578.263	1671.31
578.358	1584.31
578.454	1561.31
578.549	1609.31
578.644	1565.31
578.739	1649.31
578.834	1591.31
578.929	1549.31
579.025	1560.31
579.12	1651.31
579.215	1845.31
579.31	1731.31
579.405	1478.31
579.5	1655.31
579.595	1612.31
579.69	1538.31
579.785	1546.31
579.88	1492.31
579.975	1526.31
580.07	1525.31
580.165	1553.31
580.26	1612.31
580.355	1596.31
580.45	1539.31
580.545	1462.31
580.64	1486.31
580.735	1569.31
580.83	1502.31
580.925	1441.31
581.02	1437.31
581.115	1382.31
581.21	1357.31
581.305	1463.31
581.4	1444.31
581.495	1420.31
581.589	1441.31
581.684	1451.31
581.779	1458.31
581.874	1433.31
581.969	1591.31
582.064	1347.31
582.158	1420.31
582.253	1423.31
582.348	1344.31
582.443	1352.31
582.537	1406.31
582.632	1617.31
582.727	1382.31
582.822	1361.31
582.916	1374.31
583.011	1342.31
583.106	1426.31
583.201	1385.31
583.295	1315.31
583.39	1288.31
583.485	1277.31
583.579	3243.31
583.674	1497.31
583.769	1620.31
583.863	1366.31
583.958	1334.31
584.052	1258.31
584.147	1276.31
584.242	1248.31
584.336	1281.31
584.431	1511.31
584.525	1279.31
584.62	1454.31
584.714	1372.31
584.809	1256.31
584.903	1243.31
584.998	1366.31
585.092	1188.31
585.187	1274.31
585.281	1239.31
585.376	1297.31
585.47	1279.31
585.565	1263.31
585.659	1201.31
585.754	1242.31
585.848	1248.31
585.942	1319.31
586.037	1232.31
586.131	3442.31
586.226	1441.31
586.32	1326.31
586.414	1115.31
586.509	1331.31
586.603	1324.31
586.697	1205.31
586.792	1226.31
586.886	1171.31
586.98	1244.31
587.075	1180.31
587.169	1217.31
587.263	1363.31
587.357	1230.31
587.452	1181.31
587.546	1299.31
587.64	1111.31
587.734	1218.31
587.829	1260.31
587.923	1144.31
588.017	1177.31
588.111	1188.31
588.205	1265.31
588.3	1140.31
588.394	1131.31
588.488	1111.31
588.582	1198.31
588.676	1369.31
588.77	1533.31
588.864	2436.31
588.958	2451.31
589.052	1967.31
589.147	1587.31
589.241	1359.31
589.335	1361.31
589.429	1821.31
589.523	2049.31
589.617	1925.31
589.711	1476.31
589.805	1273.31
589.899	1304.31
589.993	1184.31
590.087	1122.31
590.181	1114.31
590.275	1205.31
590.369	1113.31
590.462	1089.31
590.556	1136.31
590.65	1084.31
590.744	1103.31
590.838	1128.31
590.932	1142.31
591.026	1140.31
591.12	1308.31
591.214	1146.31
591.307	1162.31
591.401	1177.31
591.495	1195.31
591.589	1060.31
591.683	1142.31
591.777	1199.31
591.87	1505.31
591.964	1211.31
592.058	1187.31
592.152	1208.31
592.245	1145.31
592.339	1328.31
592.433	1369.31
592.527	1267.31
592.62	1242.31
592.714	1257.31
592.808	1267.31
592.901	1302.31
592.995	1261.31
593.089	1460.31
593.182	1283.31
593.276	1282.31
593.37	1215.31
593.463	1331.31
593.557	1326.31
593.65	1259.31
593.744	1283.31
593.837	1356.31
593.931	1255.31
594.025	4848.31
594.118	1583.31
594.212	1298.31
594.305	1235.31
594.399	1231.31
594.492	1567.31
594.586	1192.31
594.679	1142.31
594.773	1135.31
594.866	1238.31
594.96	1110.31
595.053	1148.31
595.146	1077.31
595.24	1073.31
595.333	1026.31
595.427	1000.31
595.52	1001.31
595.614	1150.31
595.707	1077.31
595.8	1012.31
595.894	1000.31
595.987	984.31
596.08	945.31
596.174	1327.31
596.267	1138.31
596.36	1100.31
596.454	1116.31
596.547	1035.31
596.64	924.31
596.733	867.31
596.827	1005.31
596.92	979.31
597.013	835.31
597.106	855.31
597.2	921.31
597.293	887.31
597.386	1125.31
597.479	1020.31
597.572	921.31
597.666	864.31
597.759	899.31
597.852	1013.31
597.945	850.31
598.038	832.31
598.131	911.31
598.224	850.31
598.317	932.31
598.411	961.31
598.504	825.31
598.597	911.31
598.69	875.31
598.783	869.31
598.876	873.31
598.969	905.31
599.062	840.31
599.155	887.31
599.248	824.31
599.341	903.31
599.434	800.31
599.527	909.31
599.62	866.31
599.713	826.31
599.806	883.31
599.899	1016.31
599.991	827.31
600.084	1064.31
600.177	826.31
600.27	879.31
600.363	968.31
600.456	810.31
600.549	873.31
600.642	795.31
600.734	759.31
600.827	869.31
600.92	930.31
601.013	829.31
601.106	971.31
601.199	750.31
601.291	762.31
601.384	867.31
601.477	1027.31
601.57	944.31
601.662	770.31
601.755	812.31
601.848	807.31
601.94	788.31
602.033	976.31
602.126	829.31
602.219	796.31
602.311	955.31
602.404	780.31
602.497	786.31
602.589	793.31
602.682	881.31
602.774	818.31
602.867	836.31
602.96	835.31
603.052	814.31
603.145	790.31
603.237	879.31
603.33	807.31
603.422	884.31
603.515	812.31
603.608	812.31
603.7	804.31
603.793	824.31
603.885	805.31
603.978	764.31
604.07	770.31
604.163	755.31
604.255	784.31
604.347	731.31
604.44	768.31
604.532	780.31
604.625	784.31
604.717	776.31
604.81	776.31
604.902	739.31
604.994	736.31
605.087	781.31
605.179	716.31
605.271	756.31
605.364	793.31
605.456	806.31
605.548	760.31
605.641	817.31
605.733	719.31
605.825	770.31
605.918	753.31
606.01	903.31
606.102	1152.31
606.194	812.31
606.287	869.31
606.379	728.31
606.471	799.31
606.563	885.31
606.655	825.31
606.748	787.31
606.84	784.31
606.932	800.31
607.024	722.31
607.116	779.31
607.208	698.31
607.301	763.31
607.393	744.31
607.485	709.31
607.577	804.31
607.669	825.31
607.761	866.31
607.853	994.31
607.945	707.31
608.037	669.31
608.129	695.31
608.221	750.31
608.313	752.31
608.405	752.31
608.497	723.31
608.589	770.31
608.681	760.31
608.773	795.31
608.865	758.31
608.957	804.31
609.049	681.31
609.141	842.31
609.233	776.31
609.325	682.31
609.417	728.31
609.509	824.31
609.601	838.31
609.693	813.31
609.784	706.31
609.876	752.31
609.968	760.31
610.06	2860.31
610.152	1000.31
610.244	1444.31
610.335	815.31
610.427	712.31
610.519	674.31
610.611	700.31
610.702	758.31
610.794	684.31
610.886	759.31
610.978	753.31
611.069	1178.31
611.161	715.31
611.253	793.31
611.344	662.31
611.436	599.31
611.528	661.31
611.62	657.31
611.711	603.31
611.803	634.31
611.894	631.31
611.986	575.31
612.078	629.31
612.169	683.31
612.261	580.31
612.352	574.31
612.444	516.31
612.536	669.31
612.627	557.31
612.719	474.31
612.81	520.31
612.902	507.31
612.993	564.31
613.085	595.31
613.176	431.31
613.268	453.31
613.359	523.31
613.451	453.31
613.542	462.31
613.634	484.31
613.725	539.31
613.816	554.31
613.908	441.31
613.999	447.31
614.091	328.31
614.182	317.31
614.273	424.31
614.365	356.31
614.456	306.31
614.547	352.31
614.639	303.31
614.73	328.31
614.821	402.31
614.913	256.31
615.004	226.31
615.095	247.31
615.187	295.31
